{"AEACN": "Action Taken with Study Treatment", "AEBODSYS": "Body System or Organ Class", "AEDECOD": "Dictionary-Derived Term", "AEENDTC": "End Date/Time of Adverse Event", "AEENDY": "Study Day of End of Adverse Event", "AEENRF": "End Relative to Reference Period", "AEMODIFY": "Modified Reported Term", "AEREL": "Causality", "AESEQ": "Sequence Number", "AESER": "Serious Event", "AESEV": "Severity/Intensity", "AESPID": "Sponsor-Defined Identifier", "AESTDTC": "Start Date/Time of Adverse Event", "AESTDY": "Study Day of Start of Adverse Event", "AETERM": "Reported Term for the Adverse Event", "DOMAIN": "Domain Abbreviation", "CMCAT": "Category for Medication", "CMCLAS": "Medication Class", "CMCLASCD": "Medication Class Code", "CMDECOD": "Standardized Medication Name", "CMDOSFRQ": "Dosing Frequency per Interval", "CMDOSTXT": "Dose Description", "CMDOSU": "Dose Units", "CMENDTC": "End Date/Time of Medication", "CMENDY": "Study Day of End of Medication", "CMENRF": "End Relative to Reference Period", "CMINDC": "Indication", "CMMODIFY": "Modified Reported Name", "CMROUTE": "Route of Administration", "CMSEQ": "Sequence Number", "CMSTDTC": "Start Date/Time of Medication", "CMSTDY": "Study Day of Start of Medication", "CMTRT": "Reported Name of Drug, Med, or Therapy", "DADTC": "Date/Time of Accountability Assessment", "DADY": "Study Day of Accountability Assessment", "DAORRES": "Assessment Result in Original Units", "DISPAMT": "Dispensed Amount", "RETAMT": "Returned Amount", "DAORRESU": "Original Units", "DASEQ": "Sequence Number", "DASTRESC": "Assessment Result in Std Format", "DASTRESN": "Numeric Result/Finding in Standard Units", "DASTRESU": "Assessment Standard Units", "DATEST": "Name of Accountability Assessment", "DATESTCD": "Short Name of Accountability Assessment", "VISIT": "Visit Name", "VISITDY": "Planned Study Day of Visit", "VISITNUM": "Visit Number", "AGE": "Age", "AGEU": "Age Unit", "ARM": "Description of Planned Arm", "ARMCD": "Planned Arm Code", "BRTHDTC": "Date/Time of Birth", "COUNTRY": "Country", "ETHNIC": "Ethnicity", "RACE": "Race", "RFENDTC": "Subject Reference End Date/Time", "RFSTDTC": "Subject Reference Start Date/Time", "SEX": "Sex", "SITEID": "Study Site Identifier", "SUBJID": "Subject Identifier for the Study", "DSCAT": "Category for Disposition Event", "DSDECOD": "Standardized Disposition Term", "DSSEQ": "Sequence Number", "DSSTDTC": "Start Date/Time of Disposition Event", "DSSTDY": "Study Day of Start of Disposition Event", "DSTERM": "Reported Term for the Disposition Event", "EPOCH": "Epoch", "EGBLFL": "Baseline Flag", "EGDRVFL": "Derived Flag", "EGDTC": "Date/Time of ECG", "EGDY": "Study Day of ECG", "EGEVAL": "Evaluator", "EGORRES": "Result or Finding in Original Units", "INTPOR": "Interpretation: Original Results", "PRMEANOR": "Summary (Mean) PR Duration (Orig U)", "QRSDUROR": "Summary (Mean) QRS Duration (Orig U)", "QTMEANOR": "Summary (Mean) QT Duration (Orig U)", "VRMEANOR": "Summary (Mean) Ventricular Rate (Orig U)", "EGORRESU": "Original Units", "EGPOS": "ECG Position of Subject", "EGSEQ": "Sequence Number", "EGSPID": "Sponsor-Defined Identifier", "EGSTRESC": "Character Result/Finding in Std Format", "QTCBSR": "QTcB - Bazett's Correction Formula", "QTCFSR": "QTcF - Fridericia's Correction Formula", "EGSTRESN": "Numeric Result/Finding in Standard Units", "EGSTRESU": "Standard Units", "EGTEST": "ECG Test or Examination Name", "EGTESTCD": "ECG Test or Examination Short Name", "EXDOSE": "Dose per Administration", "EXDOSFRM": "Dose Form", "EXDOSU": "Dose Units", "EXENDTC": "End Date/Time of Treatment", "EXENDY": "Study Day of End of Treatment", "EXSEQ": "Sequence Number", "EXSTDTC": "Start Date/Time of Treatment", "EXSTDY": "Study Day of Start of Treatment", "EXTRT": "Name of Actual Treatment", "IECAT": "Inclusion/Exclusion Category", "IEDTC": "Date/Time of Collection", "IEORRES": "I/E Criterion Original Result", "EXCL01": "Is pregnant, nursing, or planning to become pregnant within 6 months of last study treatment", "EXCL02": "Is unable or unwilling to undergo multiple venipunctures", "EXCL03": "Is known to have had a substance abuse (drug or alcohol) problem within the previous 3 years", "INCL01": "Is age 18 - 85", "INCL02": "Has Xyz disease of at least 10 weeks duration confirmed by biopsy", "INCL03": "Did not respond to a standard course of medication Abc", "IESEQ": "Sequence Number", "IESTRESC": "I/E Criterion Result in Std Format", "IETEST": "Inclusion/Exclusion Criterion", "IETESTCD": "Incl/Excl Criterion Short Name", "LBBLFL": "Baseline Flag", "LBCAT": "Category for Lab Test", "LBDTC": "Date/Time of Specimen Collection", "LBDY": "Study Day of Specimen Collection", "LBFAST": "Fasting Status", "LBMETHOD": "Method of Test or Examination", "LBNRIND": "Reference Range Indicator", "LBORNRHI": "Reference Range Upper Limit in Orig Unit", "LBORNRLO": "Reference Range Lower Limit in Orig Unit", "LBORRES": "Result or Finding in Original Units", "BILI": "Bilirubin", "BUN": "Blood Urea Nitrogen", "GLUC": "Glucose", "HCT": "Hematocrit", "HGB": "Hemoglobin", "LYM": "Lymphocytes", "OCCBLD": "Occult Blood", "PH": "pH", "VITB12": "Vitamin B12", "VITB9": "Vitamin B9", "LBORRESU": "Original Units", "LBREFID": "Specimen ID", "LBSEQ": "Sequence Number", "LBSPEC": "Specimen Type", "LBSTNRC": "Reference Range for Char Rslt-Std Units", "LBSTNRHI": "Reference Range Upper Limit-Std Units", "LBSTNRLO": "Reference Range Lower Limit-Std Units", "LBSTRESC": "Character Result/Finding in Std Format", "LBSTRESN": "Numeric Result/Finding in Standard Units", "LBSTRESU": "Standard Units", "LBTEST": "Lab Test or Examination Name", "LBTESTCD": "Lab Test or Examination Short Name", "MHBODSYS": "Body System or Organ Class", "MHCAT": "Category for Medical History", "MHDTC": "Date/Time of History Collection", "MHENRF": "End Relative to Reference Period", "MHOCCUR": "Medical History Occurrence", "MHPRESP": "Medical History Event Pre-Specified", "MHSEQ": "Sequence Number", "MHSTDTC": "Start Date/Time of Medical History Event", "MHTERM": "Reported Term for the Medical History", "PEDTC": "Date/Time of Examination", "PEDY": "Study Day of Examination", "PEORRES": "Verbatim Examination Finding", "PE01": "Appearance/Skin", "PE02": "Head/Neck (Including Thyroid)", "PE03": "Eyes-Ears-Nose-Throat", "PE04": "Cardiovascular", "PE05": "Pulmonary", "PE06": "Abdomen", "PE07": "Neurological", "PE08": "Musculoskeletal", "PE09": "Other", "PESEQ": "Sequence Number", "PESTRESC": "Character Result/Finding in Std Format", "PETEST": "Body System Examined", "PETESTCD": "Body System Examined Short Name", "QSBLFL": "Baseline Flag", "QSCAT": "Category of Question", "QSDTC": "Date/Time of Finding", "QSDY": "Study Day of Finding", "QSEVLINT": "Evaluation Interval", "QSORRES": "Finding in Original Units", "CGIGLOB": "Global Improvement", "CSDD01": "Anxiety", "CSDD02": "Sadness", "CSDD03": "Lack of Reactivity to Pleasant Events", "CSDD04": "Irritability", "CSDD05": "Agitation", "CSDD06": "Retardation", "CSDD07": "Multiple Physical Complaints", "CSDD08": "Loss of Interest", "CSDD09": "Appetite Loss", "CSDD10": "Weight Loss", "CSDD11": "Lack of Energy", "CSDD12": "Diurnal Variation of Mood", "CSDD13": "Difficulty Falling Asleep", "CSDD14": "Multiple Awakenings During Sleep", "CSDD15": "Early Morning Awakening", "CSDD16": "Suicide", "CSDD17": "Poor Self-Esteem", "CSDD18": "Pessimism", "CSDD19": "Mood-Congruent Delusions", "CSDDTOT": "Total Score", "MMSEA1": "Orientation time score", "MMSEA2": "Orientation place score", "MMSEB": "Registration", "MMSEC": "Attention and Calculation", "MMSED": "Recall", "MMSEET": "Language", "MMSETOT": "Total Score", "QSSCAT": "Subcategory for Question", "QSSEQ": "Sequence Number", "QSSTRESC": "Character Result/Finding in Std Format", "QSSTRESN": "Numeric Finding in Standard Units", "QSTEST": "Question Name", "QSTESTCD": "Question Short Name", "RDOMAIN": "Related Domain Abbreviation", "IDVAR": "Identifying Variable", "IDVARVAL": "Identifying Variable Value", "RELID": "Relationship Identifier", "RELTYPE": "Relationship Type", "SCDTC": "Date/Time of Collection", "SCDY": "Study Day of Examination", "SCORRES": "Result or Finding in Original Units", "EDLEVEL": "Education Level", "MARISTAT": "Marital Status", "SUBJINIT": "Subject Initials", "SCSEQ": "Sequence Number", "SCSTRESC": "Character Result/Finding in Std Format", "SCTEST": "Subject Characteristic", "SCTESTCD": "Subject Characteristic Short Name", "ELEMENT": "Description of Element", "ETCD": "Element Code", "SEENDTC": "End Date/Time of Element", "SESEQ": "Sequence Number", "SESTDTC": "Start Date/Time of Element", "TAETORD": "Order of Element within Arm", "STUDYID": "Study Identifier", "QEVAL": "Evaluator", "QLABEL": "Qualifier Variable Label", "QNAM": "Qualifier Variable Name", "QORIG": "Origin", "QVAL": "Data Value", "AETRTEM": "Treatment Emergent Flag", "HLGT": "High Level Group Term", "HLT": "High Level Term", "LLT": "Lowest Level Term", "ATC4CODE": "WHODRUG ATC Level 4 Code", "ATC4TERM": "ATC4 Drug Class Term", "CPREFCD": "WHODRUG Drug Code", "PDDREAS": "Reason for Discontinuation", "PDRESP": "Response", "RACE1": "Race 1", "RACE2": "Race 2", "RACE3": "Race 3", "RACEOTH": "Race, Other", "RAND": "Randomized Population Flag", "RANDNO": "Randomization Number", "SAFETY": "Safety Population Flag", "EGCLSIG": "Clinically Significant", "SMNO": "Number of Tablets Per Day", "LBCLSIG": "Clinically Significant", "RTRINIT": "Rater Initials", "VSCLSIG": "Clinically Significant", "SVENDTC": "End Date/Time of Visit", "SVSTDTC": "Start Date/Time of Visit", "SVSTDY": "Study Day of Start of Visit", "TABRANCH": "Branch", "TATRANS": "Transition Rule", "TEDUR": "Planned Duration of Element", "TESTRL": "Rule for Start of Element", "TSPARM": "Trial Summary Parameter", "TSPARMCD": "Trial Summary Parameter Short Name", "TSSEQ": "Sequence Number", "TSVAL": "Parameter Value", "ADDON": "Added on to Existing Treatments", "AGEMAX": "Planned Maximum Age of Subjects", "AGEMIN": "Planned Minimum Age of Subjects", "AGESPAN": "Age Span", "DOSE": "Dose per Administration", "DOSFRQ": "Dosing Frequency", "DOSU": "Dose Units", "LENGTH": "Trial Length", "OBJPRIM": "Trial Primary Objective", "OBJSEC": "Trial Secondary Objective", "PLANSUB": "Planned Number of Subjects", "RANDOM": "Trial is Randomized", "ROUTE": "Route of Administration", "SEXPOP": "Sex of Participants", "SPONSOR": "Clinical Study Sponsor", "TBLIND": "Trial Blinding Schema", "TCNTRL": "Control Type", "TINDTP": "Trial Indication Type", "TITLE": "Trial Title", "TPHASE": "Trial Phase Classification", "TRT": "Investigational Therapy or Treatment", "TTYPE": "Trial Type", "TVSTRL": "Visit Start Rule", "USUBJID": "Unique Subject Identifier", "VSBLFL": "Baseline Flag", "VSDTC": "Date/Time of Measurements", "VSDY": "Study Day of Vital Signs", "VSORRES": "Result or Finding in Original Units", "DIABPOR": "Diastolic Blood Pressure (Orig U)", "FRMSZOR": "Body Frame Size (Orig U)", "HEIGHTOR": "Height (Orig U)", "PULSEOR": "Pulse Rate (Orig U)", "SYSBPOR": "Systolic Blood Pressure (Orig U)", "WEIGHTOR": "Weight (Orig U)", "VSORRESU": "Original Units", "VSPOS": "Vital Signs Position of Subject", "VSSEQ": "Sequence Number", "VSSTRESC": "Character Result/Finding in Std Format", "VSSTRESN": "Numeric Result/Finding in Standard Units", "VSSTRESU": "Standard Units", "HEIGHTU": "Height: Original Units", "WEIGHTU": "Height: Original Units", "VSTEST": "Vital Signs Test Name", "VSTESTCD": "Vital Signs Test Short Name", "AEGRPID": "Group ID", "AEREFID": "Reference ID", "AELLT": "Lowest Level Term", "AELLTCD": "Lowest Level Term Code", "AEPTCD": "Preferred Term Code", "AEHLT": "High Level Term", "AEHLTCD": "High Level Term Code", "AEHLGT": "High Level Group Term", "AEHLGTCD": "High Level Group Term Code", "AECAT": "Category for Adverse Event", "AESCAT": "Subcategory for Adverse Event", "AEPRESP": "Pre-Specified Adverse Event", "AEBDSYCD": "Body System or Organ Class Code", "AESOC": "Primary System Organ Class", "AESOCCD": "Primary System Organ Class Code", "AELOC": "Location of Event", "AEACNOTH": "Other Action Taken", "AERELNST": "Relationship to Non-Study Treatment", "AEPATT": "Pattern of Adverse Event", "AEOUT": "Outcome of Adverse Event", "AESCAN": "Involves Cancer", "AESCONG": "Congenital Anomaly or Birth Defect", "AESDISAB": "Persist or Signif Disability/Incapacity", "AESDTH": "Results in Death", "AESHOSP": "Requires or Prolongs Hospitalization", "AESLIFE": "Is Life Threatening", "AESOD": "Occurred with Overdose", "AESMIE": "Other Medically Important Serious Event", "AECONTRT": "Concomitant or Additional Trtmnt Given", "AETOXGR": "Standard Toxicity Grade", "AEDUR": "Duration of Adverse Event", "AEENRTPT": "End Relative to Reference Time Point", "AEENTPT": "End Reference Time Point", "CESEQ": "Sequence Number", "CEGRPID": "Group ID", "CEREFID": "Reference ID", "CESPID": "Sponsor-Defined Identifier", "CETERM": "Reported Term for the Clinical Event", "CEDECOD": "Dictionary-Derived Term", "CECAT": "Category for Clinical Event", "CESCAT": "Subcategory for Clinical Event", "CEPRESP": "Clinical Event Pre-Specified", "CEOCCUR": "Clinical Event Occurrence", "CESTAT": "Completion Status", "CEREASND": "Reason Clinical Event Not Collected", "CEBODSYS": "Body System or Organ Class", "CESEV": "Severity/Intensity", "CEDTC": "Date/Time of Event Collection", "CESTDTC": "Start Date/Time of Clinical Event", "CEENDTC": "End Date/Time of Clinical Event", "CEDY": "Study Day of Event Collection", "CESTRF": "Start Relative to Reference Period", "CEENRF": "End Relative to Reference Period", "CESTRTPT": "Start Relative to Reference Time Point", "CESTTPT": "Start Reference Time Point", "CEENRTPT": "End Relative to Reference Time Point", "CEENTPT": "End Reference Time Point", "DSGRPID": "Group ID", "DSREFID": "Reference ID", "DSSPID": "Sponsor-Defined Identifier", "DSSCAT": "Subcategory for Disposition Event", "DSDTC": "Date/Time of Collection", "DVSEQ": "Sequence Number", "DVREFID": "Reference ID", "DVSPID": "Sponsor-Defined Identifier", "DVDECOD": "Protocol Deviation Coded Term", "DVCAT": "Category for Protocol Deviation", "DVSCAT": "Subcategory for Protocol Deviation", "DVSTDTC": "Start Date/Time of Deviation", "DVENDTC": "End Date/Time of Deviation", "DVTERM": "Protocol Deviation Term", "HOSEQ": "Sequence Number", "HOGRPID": "Group ID", "HOREFID": "Reference ID", "HOSPID": "Sponsor-Defined Identifier", "HOTERM": "Reported Term for the Healthcare Encounter", "HODECOD": "Dictionary-Derived Term for the Healthcare Encounter", "HOCAT": "Category for Healthcare Encounter", "HOSCAT": "Subcategory for Healthcare Encounter", "HOPRESP": "Pre-Specified Healthcare Encounter", "HOOCCUR": "Healthcare Encounter Occurrence", "HOSTAT": "Completion Status", "HOREASND": "Reason Healthcare Encounter Not Done", "HODTC": "Date/Time of Event Collection", "HOSTDTC": "Start Date/Time of Healthcare Encounter", "HOENDTC": "End Date/Time of Healthcare Encounter", "HODY": "Study Day of Event Collection", "HOSTDY": "Study Day of Start of Healthcare Encounter", "HOENDY": "Study Day of End of Healthcare Encounter", "HODUR": "Duration of Healthcare Encounter", "HOSTRTPT": "Start Relative to Reference Time Point", "HOSTTPT": "Start Reference Time Point", "HOENRTPT": "End Relative to Reference Time Point", "HOENTPT": "End Reference Time Point", "MHGRPID": "Group ID", "MHREFID": "Reference ID", "MHSPID": "Sponsor-Defined Identifier", "MHMODIFY": "Modified Reported Term", "MHDECOD": "Dictionary-Derived Term", "MHSCAT": "Subcategory for Medical History", "MHSTAT": "Completion Status", "MHREASND": "Reason Medical History Not Done or Not Occurred", "MHENDTC": "End Date/Time of Medical History Event", "MHDY": "Study Day of History Collection", "MHENRTPT": "End Relative to Reference Time Point", "MHENTPT": "End Reference Time Point", "CMGRPID": "Group ID", "CMSPID": "Sponsor-Defined Identifier", "CMSCAT": "Subcategory for Medication", "CMPRESP": "CM Pre-Specified", "CMOCCUR": "CM Occurrence", "CMSTAT": "Completion Status", "CMREASND": "Reason Medication Not Collected", "CMDOSE": "Dose per Administration", "CMDOSFRM": "Dose Form", "CMDOSTOT": "Total Daily Dose", "CMDOSRGM": "Intended Dose Regimen", "CMDUR": "Duration of Medication", "CMSTRF": "Start Relative to Reference Period", "CMSTRTPT": "Start Relative to Reference Time Point", "CMSTTPT": "Start Reference Time Point", "CMENRTPT": "End Relative to Reference Time Point", "CMENTPT": "End Reference Time Point", "PRSEQ": "Sequence Number", "PRGRPID": "Group ID", "PRSPID": "Sponsor-Defined Identifier", "PRLNKID": "Link ID", "PRLNKGRP": "Link Group ID", "PRTRT": "Reported Name of Procedure", "PRDECOD": "Standardized Procedure Name", "PRCAT": "Category", "PRSCAT": "Subcategory", "PRPRESP": "Pre-specified", "PROCCUR": "Occurrence", "PRINDC": "Indication", "PRDOSE": "Dose", "PRDOSTXT": "Dose Description", "PRDOSU": "Dose Units", "PRDOSFRM": "Dose Form", "PRDOSFRQ": "Dosing Frequency per Interval", "PRDOSRGM": "Intended Dose Regimen", "PRROUTE": "Route of Administration", "PRLOC": "Location of Procedure", "PRLAT": "Laterality", "PRDIR": "Directionality", "PRPORTOT": "Portion or Totality", "PRSTDTC": "Start Date/Time of Procedure", "PRENDTC": "End Date/Time of Procedure", "PRSTDY": "Study Day of Start of Procedure", "PRENDY": "Study Day of End of Procedure", "PRDUR": "Duration of Procedure", "PRTPT": "Planned Time Point Name", "PRTPTNUM": "Planned Time Point Number", "PRELTM": "Planned Elapsed Time from Time Point Ref", "PRTPTREF": "Time Point Reference", "PRRFTDTC": "Date/Time of Reference Time Point", "PRSTRTPT": "Start Relative to Reference Time Point", "PRSTTPT": "Start Reference Time Point", "PRENRTPT": "End Relative to Reference Time Point", "PRENTPT": "End Reference Time Point", "EXGRPID": "Group ID", "EXREFID": "Reference ID", "EXSPID": "Sponsor-Defined Identifier", "EXLNKID": "Link ID", "EXLNKGRP": "Link Group ID", "EXCAT": "Category of Treatment", "EXSCAT": "Subcategory of Treatment", "EXDOSTXT": "Dose Description", "EXDOSFRQ": "Dosing Frequency per Interval", "EXDOSRGM": "Intended Dose Regimen", "EXROUTE": "Route of Administration", "EXLOT": "Lot Number", "EXLOC": "Location of Dose Administration", "EXLAT": "Laterality", "EXDIR": "Directionality", "EXFAST": "Fasting Status", "EXADJ": "Reason for Dose Adjustment", "EXDUR": "Duration of Treatment", "EXTPT": "Planned Time Point Name", "EXTPTNUM": "Planned Time Point Number", "EXELTM": "Planned Elapsed Time from Time Point Ref", "EXTPTREF": "Time Point Reference", "EXRFTDTC": "Date/Time of Reference Time Point", "ECSEQ": "Sequence Number", "ECGRPID": "Group ID", "ECREFID": "Reference ID", "ECSPID": "Sponsor-Defined Identifier", "ECLNKID": "Link ID", "ECLNKGRP": "Link Group ID", "ECTRT": "Name of Treatment", "ECMOOD": "Mood", "ECCAT": "Category of Treatment", "ECSCAT": "Subcategory of Treatment", "ECPRESP": "Pre-Specified", "ECOCCUR": "Occurrence", "ECDOSE": "Dose", "ECDOSTXT": "Dose Description", "ECDOSU": "Dose Units", "ECDOSFRM": "Dose Form", "ECDOSFRQ": "Dosing Frequency per Interval", "ECDOSTOT": "Total Daily Dose", "ECDOSRGM": "Intended Dose Regimen", "ECROUTE": "Route of Administration", "ECLOT": "Lot Number", "ECLOC": "Location of Dose Administration", "ECLAT": "Laterality", "ECDIR": "Directionality", "ECPORTOT": "Portion or Totality", "ECFAST": "Fasting Status", "ECPSTRG": "Pharmaceutical Strength", "ECPSTRGU": "Pharmaceutical Strength Units", "ECADJ": "Reason for Dose Adjustment", "ECSTDTC": "Start Date/Time of Treatment", "ECENDTC": "End Date/Time of Treatment", "ECSTDY": "Study Day of Start of Treatment", "ECENDY": "Study Day of End of Treatment", "ECDUR": "Duration of Treatment", "ECTPT": "Planned Time Point Name", "ECTPTNUM": "Planned Time Point Number", "ECELTM": "Planned Elapsed Time from Time Point Ref", "ECTPTREF": "Time Point Reference", "ECRFTDTC": "Date/Time of Reference Time Point", "SUSEQ": "Sequence Number", "SUGRPID": "Group ID", "SUSPID": "Sponsor-Defined Identifier", "SUTRT": "Reported Name of Substance", "SUMODIFY": "Modified Substance Name", "SUDECOD": "Standardized Substance Name", "SUCAT": "Category for Substance Use", "SUSCAT": "Subcategory for Substance Use", "SUPRESP": "SU Pre-Specified", "SUOCCUR": "SU Occurrence", "SUSTAT": "Completion Status", "SUREASND": "Reason Substance Use Not Collected", "SUCLAS": "Substance Use Class", "SUCLASCD": "Substance Use Class Code", "SUDOSE": "Substance Use Consumption", "SUDOSTXT": "Substance Use Consumption Text", "SUDOSU": "Consumption Units", "SUDOSFRM": "Dose Form", "SUDOSFRQ": "Use Frequency Per Interval", "SUDOSTOT": "Total Daily Consumption", "SUROUTE": "Route of Administration", "SUSTDTC": "Start Date/Time of Substance Use", "SUENDTC": "End Date/Time of Substance Use", "SUSTDY": "Study Day of Start of Substance Use", "SUENDY": "Study Day of End of Substance Use", "SUDUR": "Duration of Substance Use", "SUSTRF": "Start Relative to Reference Period", "SUENRF": "End Relative to Reference Period", "SUSTRTPT": "Start Relative to Reference Time Point", "SUSTTPT": "Start Reference Time Point", "SUENRTPT": "End Relative to Reference Time Point", "SUENTPT": "End Reference Time Point", "TEENRL": "Rule for End of Element", "TVENRL": "Visit End Rule", "TDORDER": "Sequence of Planned Assessment Schedule", "TDANCVAR": "Anchor Variable Name", "TDSTOFF": "Offset from the Anchor", "TDTGTPAI": "Planned Assessment Interval", "TDMINPAI": "Planned Assessment Interval Minimum", "TDMAXPAI": "Planned Assessment Interval Maximum", "TDNUMRPT": "Maximum Number of Actual Assessments", "IESCAT": "Inclusion/Exclusion Subcategory", "TIRL": "Inclusion/Exclusion Criterion Rule", "TIVERS": "Protocol Criteria Versions", "TSGRPID": "Group ID", "TSVALNF": "Parameter Null Flavor", "TSVALCD": "Parameter Value Code", "TSVCDREF": "Name of the Reference Terminology", "TSVCDVER": "Version of the Reference Terminology", "SETCD": "Set Code", "SET": "Set Description", "TXSEQ": "Sequence Number", "TXPARMCD": "Trial Set Parameter Short Name", "TXPARM": "Trial Set Parameter", "TXVAL": "Trial Set Parameter Value", "COSEQ": "Sequence Number", "COREF": "Comment Reference", "COVAL": "Comment", "COEVAL": "Evaluator", "CODTC": "Date/Time of Comment", "RFXSTDTC": "Date/Time of First Study Treatment", "RFXENDTC": "Date/Time of Last Study Treatment", "RFICDTC": "Date/Time of Informed Consent", "RFPENDTC": "Date/Time of End of Participation", "DTHDTC": "Date/Time of Death", "DTHFL": "Subject Death Flag", "INVID": "Investigator Identifier", "INVNAM": "Investigator Name", "ACTARMCD": "Actual Arm Code", "ACTARM": "Description of Actual Arm", "DMDTC": "Date/Time of Collection", "DMDY": "Study Day of Collection", "SEUPDES": "Description of Unplanned Element", "SVENDY": "Study Day of End of Visit", "SVUPDES": "Description of Unplanned Visit", "POOLID": "Pool Identifier", "APID": "Associated Persons Identifier", "RSUBJID": "Related Subject or Pool Identifier", "SREL": "Subject Relationship", "RDEVID": "Related Device", "FASEQ": "Sequence Number", "FAGRPID": "Group ID", "FASPID": "Sponsor-Defined Identifier", "FATESTCD": "Findings About Test Short Name", "FATEST": "Findings About Test Name", "FAOBJ": "Object of the Observation", "FACAT": "Category for Findings About", "FASCAT": "Subcategory for Findings About", "FAORRES": "Result or Finding in Original Units", "FAORRESU": "Original Units", "FASTRESC": "Character Result/Finding in Std Format", "FASTRESN": "Numeric Result/Finding in Standard Units", "FASTRESU": "Standard Units", "FASTAT": "Completion Status", "FAREASND": "Reason Not Performed", "FALOC": "Location of the Finding About", "FALAT": "Laterality of Location of the Finding About", "FABLFL": "Baseline Flag", "FAEVAL": "Evaluator", "FADTC": "Date/Time of Collection", "FADY": "Study Day of Collection", "SRSEQ": "Sequence Number", "SRGRPID": "Group ID", "SRREFID": "Reference ID", "SRSPID": "Sponsor-Defined Identifier", "SRTESTCD": "Skin Response Test or Exam Short Name", "SRTEST": "Skin Response Test or Examination Name", "SROBJ": "Object of the Observation", "SRCAT": "Category for Test", "SRSCAT": "Subcategory for Test", "SRORRES": "Results or Findings in Original Units", "SRORRESU": "Original Units", "SRSTRESC": "Character Results/Findings in Std. Format", "SRSTRESN": "Numeric Results/Findings in Std. Units", "SRSTRESU": "Standard Units", "SRSTAT": "Completion Status", "SRREASND": "Reason Not Done", "SRNAM": "Vendor Name", "SRSPEC": "Specimen Type", "SRLOC": "Location used for Measurement", "SRLAT": "Laterality", "SRMETHOD": "Method of Test or Examination", "SREVAL": "Evaluator", "SRDTC": "Date/Time of Collection", "SRDY": "Study Day of Visit/Collection/Exam", "SRTPT": "Planned Time Point Name", "SRTPTNUM": "Planned Time Point Number", "SRELTM": "Planned Elapsed Time from Time Point Ref", "SRTPTREF": "Time Point Reference", "SRRFTDTC": "Date/Time of Reference Time Point", "DAGRPID": "Group ID", "DAREFID": "Reference ID", "DASPID": "Sponsor-Defined Identifier", "DACAT": "Category of Assessment", "DASCAT": "Subcategory of Assessment", "DASTAT": "Completion Status", "DAREASND": "Reason Not Performed", "DDSEQ": "Sequence Number", "DDTESTCD": "Death Detail Assessment Short Name", "DDTEST": "Death Detail Assessment Name", "DDORRES": "Result or Finding as Collected", "DDSTRESC": "Character Result/Finding in Std Format", "DDRESCAT": "Result Category", "DDEVAL": "Evaluator", "DDDTC": "Date/Time of Collection", "DDDY": "Study Day of Collection", "EGGRPID": "Group ID", "EGREFID": "ECG Reference ID", "EGCAT": "Category for ECG", "EGSCAT": "Subcategory for ECG", "EGSTAT": "Completion Status", "EGREASND": "Reason ECG Not Performed", "EGXFN": "ECG External File Path", "EGNAM": "Vendor Name", "EGLEAD": "Lead Location Used for Measurement", "EGMETHOD": "Method of ECG Test", "EGTPT": "Planned Time Point Name", "EGTPTNUM": "Planned Time Point Number", "EGELTM": "Planned Elapsed Time from Time Point Ref", "EGTPTREF": "Time Point Reference", "EGRFTDTC": "Date/Time of Reference Time Point", "IESPID": "Sponsor-Defined Identifier", "IEDY": "Study Day of Collection", "ISSEQ": "Sequence Number", "ISGRPID": "Group ID", "ISREFID": "Reference ID", "ISSPID": "Sponsor-Defined Identifier", "ISTESTCD": "Immunogenicity Test/Exam Short Name", "ISTEST": "Immunogenicity Test or Examination Name", "ISCAT": "Category for Immunogenicity Test", "ISSCAT": "Subcategory for Immunogenicity Test", "ISORRES": "Results or Findings in Original Units", "ISORRESU": "Original Units", "ISSTRESC": "Character Results/Findings in Std. Format", "ISSTRESN": "Numeric Results/Findings in Std. Units", "ISSTRESU": "Standard Units", "ISSTAT": "Completion Status", "ISREASND": "Reason Not Done", "ISNAM": "Vendor Name", "ISSPEC": "Specimen Type", "ISMETHOD": "Method of Test or Examination", "ISBLFL": "Baseline Flag", "ISLLOQ": "Lower Limit of Quantitation", "ISDTC": "Date/Time of Collection", "ISDY": "Study Day of Visit/Collection/Exam", "LBGRPID": "Group ID", "LBSPID": "Sponsor-Defined Identifier", "LBSCAT": "Subcategory for Lab Test", "LBSTAT": "Completion Status", "LBREASND": "Reason Test Not Done", "LBNAM": "Vendor Name", "LBLOINC": "LOINC Code", "LBSPCCND": "Specimen Condition", "LBDRVFL": "Derived Flag", "LBTOX": "Toxicity", "LBTOXGR": "Standard Toxicity Grade", "LBENDTC": "End Date/Time of Specimen Collection", "LBTPT": "Planned Time Point Name", "LBTPTNUM": "Planned Time Point Number", "LBELTM": "Planned Elapsed Time from Time Point Ref", "LBTPTREF": "Time Point Reference", "LBRFTDTC": "Date/Time of Reference Time Point", "MBSEQ": "Sequence Number", "MBGRPID": "Group ID", "MBREFID": "Reference ID", "MBSPID": "Sponsor-Defined Identifier", "MBTESTCD": "Microbiology Test or Finding Short Name", "MBTEST": "Microbiology Test or Finding Name", "MBCAT": "Category for Microbiology Finding", "MBSCAT": "Subcategory for Microbiology Finding", "MBORRES": "Result or Finding in Original Units", "MBORRESU": "Original Units", "MBSTRESC": "Character Result/Finding in Std Format", "MBSTRESN": "Numeric Result/Finding in Standard Units", "MBSTRESU": "Standard Units", "MBRESCAT": "Result Category", "MBSTAT": "Completion Status", "MBREASND": "Reason Microbiology Not Performed", "MBNAM": "Vendor Name", "MBLOINC": "LOINC Code", "MBSPEC": "Specimen Type", "MBSPCCND": "Specimen Condition", "MBLOC": "Specimen Collection Location", "MBMETHOD": "Method of Test or Examination", "MBBLFL": "Baseline Flag", "MBDRVFL": "Derived Flag", "MBDTC": "Date/Time of Specimen Collection", "MBDY": "Study Day of MB Specimen Collection", "MBTPT": "Planned Time Point Name", "MBTPTNUM": "Planned Time Point Number", "MBELTM": "Planned Elapsed Time from Time Point Ref", "MBTPTREF": "Time Point Reference", "MBRFTDTC": "Date/Time of Reference Time Point", "MSSEQ": "Sequence Number", "MSGRPID": "Group ID", "MSREFID": "Reference ID", "MSSPID": "Sponsor-Defined Identifier", "MSTESTCD": "Microbiology Organism Finding Short Name", "MSTEST": "Organism Test or Finding Name", "MSCAT": "Category for Organism Findings", "MSSCAT": "Subcategory for Organism Findings", "MSORRES": "Result or Finding in Original Units", "MSORRESU": "Original Units", "MSSTRESC": "Character Result/Finding in Std Format", "MSSTRESN": "Numeric Result/Finding in Standard Units", "MSSTRESU": "Standard Units", "MSRESCAT": "Result Category", "MSSTAT": "Completion Status", "MSREASND": "Reason Test Not Done", "MSNAM": "Vendor Name", "MSLOINC": "LOINC Code", "MSMETHOD": "Method of Test or Examination", "MSBLFL": "Baseline Flag", "MSDRVFL": "Derived Flag", "MSDTC": "Date/Time of Test", "MSDY": "Study Day of Test", "MSTPT": "Planned Time Point Name", "MSTPTNUM": "Planned Time Point Number", "MSELTM": "Planned Elapsed Time from Time Point Ref", "MSTPTREF": "Time Point Reference", "MISEQ": "Sequence Number", "MIGRPID": "Group ID", "MIREFID": "Reference ID", "MISPID": "Sponsor-Defined Identifier", "MITESTCD": "Microscopic Examination Short Name", "MITEST": "Microscopic Examination Name", "MITSTDTL": "Microscopic Examination Detail", "MICAT": "Category for Microscopic Finding", "MISCAT": "Subcategory for Microscopic Finding", "MIORRES": "Result or Finding in Original Units", "MIORRESU": "Original Units", "MISTRESC": "Character Result/Finding in Standard Format", "MISTRESN": "Numeric Result/Finding in Standard Units", "MISTRESU": "Standard Units", "MIRESCAT": "Result Category", "MISTAT": "Completion Status", "MIREASND": "Reason Not Done", "MINAM": "Laboratory/Vendor Name", "MISPEC": "Specimen Material Type", "MISPCCND": "Specimen Condition", "MILOC": "Specimen Collection Location", "MILAT": "Specimen Laterality within Subject", "MIDIR": "Specimen Directionality within Subject", "MIMETHOD": "Method of Test or Examination", "MIBLFL": "Baseline Flag", "MIEVAL": "Evaluator", "MIDTC": "Date/Time of Specimen Collection", "MIDY": "Study Day of Specimen Collection", "MOSEQ": "Sequence Number", "MOGRPID": "Group ID", "MOREFID": "Reference ID", "MOSPID": "Sponsor-Defined Identifier", "MOLNKID": "Link ID", "MOTESTCD": "Test or Examination Short Name", "MOTEST": "Test or Examination Name", "MOCAT": "Category for Test", "MOSCAT": "Subcategory for Test", "MOPOS": "Position of Subject", "MOORRES": "Result or Finding in Original Units", "MOORRESU": "Original Units", "MOSTRESC": "Character Result/Finding in Std Format", "MOSTRESN": "Numeric Result/Finding in Standard Units", "MOSTRESU": "Standard Units", "MOSTAT": "Completion Status", "MOREASND": "Reason Test Not Performed", "MOXFN": "External File Path", "MONAM": "Vendor Name", "MOLOC": "Location Used for Measurement", "MOLAT": "Specimen Laterality within Subject", "MODIR": "Specimen Directionality within Subject", "MOPORTOT": "Portion or Totality", "MOMETHOD": "Method of Procedure Test", "MOANMETH": "Analysis Method", "MOBLFL": "Baseline Flag", "MODRVFL": "Derived Flag", "MOEVAL": "Evaluator", "MODTC": "Date/Time of Test", "MODY": "Study Day of Test", "MOTPT": "Planned Time Point Name", "MOTPTNUM": "Planned Time Point Number", "MOELTM": "Planned Elapsed Time from Time Point Ref", "MOTPTREF": "Time Point Reference", "MORFTDTC": "Date/Time of Reference Time Point", "PCSEQ": "Sequence Number", "PCGRPID": "Group ID", "PCREFID": "Reference ID", "PCSPID": "Sponsor-Defined Identifier", "PCTESTCD": "Pharmacokinetic Test Short Name", "PCTEST": "Pharmacokinetic Test Name", "PCCAT": "Test Category", "PCSCAT": "Test Subcategory", "PCORRES": "Result or Finding in Original Units", "PCORRESU": "Original Units", "PCSTRESC": "Character Result/Finding in Standard Format", "PCSTRESN": "Numeric Result/Finding in Standard Units", "PCSTRESU": "Standard Units", "PCSTAT": "Completion Status", "PCREASND": "Reason Test Not Done", "PCNAM": "Vendor Name", "PCSPEC": "Specimen Material Type", "PCSPCCND": "Specimen Condition", "PCMETHOD": "Method of Test or Examination", "PCFAST": "Fasting Status", "PCDRVFL": "Derived Flag", "PCLLOQ": "Lower Limit of Quantitation", "PCULOQ": "Upper Limit of Quantitation", "PCDTC": "Date/Time of Specimen Collection", "PCENDTC": "End Date/Time of Specimen Collection", "PCDY": "Actual Study Day of Specimen Collection", "PCTPT": "Planned Time Point Name", "PCTPTNUM": "Planned Time Point Number", "PCELTM": "Planned Elapsed Time from Time Point Ref", "PCTPTREF": "Time Point Reference", "PCRFTDTC": "Date/Time of Reference Point", "PCEVLINT": "Evaluation Interval", "PPSEQ": "Sequence Number", "PPGRPID": "Group ID", "PPTESTCD": "Parameter Short Name", "PPTEST": "Parameter Name", "PPCAT": "Parameter Category", "PPSCAT": "Parameter Subcategory", "PPORRES": "Result or Finding in Original Units", "PPORRESU": "Original Units", "PPSTRESC": "Character Result/Finding in Standard Format", "PPSTRESN": "Numeric Result/Finding in Standard Units", "PPSTRESU": "Standard Units", "PPSTAT": "Completion Status", "PPREASND": "Reason Parameter Not Calculated", "PPSPEC": "Specimen Material Type", "PPDTC": "Date/Time of Parameter Calculations", "PPRFTDTC": "Date/Time of Reference Point", "PPSTINT": "Planned Start of Assessment Interval", "PPENINT": "Planned End of Assessment Interval", "PEGRPID": "Group ID", "PESPID": "Sponsor-Defined Identifier", "PEMODIFY": "Modified Reported Term", "PECAT": "Category for Examination", "PESCAT": "Subcategory for Examination", "PEBODSYS": "Body System or Organ Class", "PEORRESU": "Original Units", "PESTAT": "Completion Status", "PEREASND": "Reason Not Examined", "PELOC": "Location of Physical Exam Finding", "PEMETHOD": "Method of Test or Examination", "PEEVAL": "Evaluator", "QSGRPID": "Group ID", "QSSPID": "Sponsor-Defined Identifier", "QSORRESU": "Original Units", "QSSTRESU": "Standard Units", "QSSTAT": "Completion Status", "QSREASND": "Reason Not Performed", "QSDRVFL": "Derived Flag", "QSEVAL": "Evaluator", "QSTPT": "Planned Time Point Name", "QSTPTNUM": "Planned Time Point Number", "QSELTM": "Planned Elapsed Time from Time Point Ref", "QSTPTREF": "Time Point Reference", "QSRFTDTC": "Date/Time of Reference Time Point", "RPSEQ": "Sequence Number", "RPGRPID": "Group ID", "RPREFID": "Reference ID", "RPSPID": "Sponsor-Defined Identifier", "RPTESTCD": "Repro System Findings Test Short Name", "RPTEST": "Reproductive System Findings Test Name", "RPCAT": "Category for Repro System Findings", "RPSCAT": "Subcategory for Repro System Findings", "RPORRES": "Result or Finding in Original Units", "RPORRESU": "Original Units", "RPSTRESC": "Character Result/Finding in Std. Format", "RPSTRESN": "Numeric Result/Finding in Standard Units", "RPSTRESU": "Standard Units", "RPSTAT": "Completion Status", "RPREASND": "Reason Not Performed", "RPBLFL": "Baseline Flag", "RPDRVFL": "Derived Flag", "RPDTC": "Date/Time of Measurements", "RPDY": "Study Day of Repro System Findings", "SCGRPID": "Group ID", "SCSPID": "Sponsor-Defined Identifier", "SCCAT": "Category for Subject Characteristic", "SCSCAT": "Subcategory for Subject Characteristic", "SCORRESU": "Original Units", "SCSTRESN": "Numeric Result/Finding in Standard Units", "SCSTRESU": "Standard Units", "SCSTAT": "Completion Status", "SCREASND": "Reason Not Performed", "SSSEQ": "Sequence Number", "SSGRPID": "Group ID", "SSSPID": "Sponsor-Defined Identifier", "SSTESTCD": "Status Short Name", "SSTEST": "Status Name", "SSCAT": "Category for Assessment", "SSSCAT": "Subcategory for Assessment", "SSORRES": "Result or Finding Original Result", "SSSTRESC": "Character Result/Finding in Std Format", "SSSTAT": "Completion Status", "SSREASND": "Reason Assessment Not Performed", "SSEVAL": "Evaluator", "SSDTC": "Date/Time of Assessment", "SSDY": "Study Day of Assessment", "TUSEQ": "Sequence Number", "TUGRPID": "Group ID", "TUREFID": "Reference ID", "TUSPID": "Sponsor-Defined Identifier", "TULNKID": "Link ID", "TUTESTCD": "Tumor Identification Short Name", "TUTEST": "Tumor Identification Test Name", "TUORRES": "Tumor Identification Result", "TUSTRESC": "Tumor Identification Result Std. Format", "TUNAM": "Vendor Name", "TULOC": "Location of the Tumor", "TULAT": "Laterality", "TUDIR": "Directionality", "TUPORTOT": "Portion or Totality", "TUMETHOD": "Method of Identification", "TUEVAL": "Evaluator", "TUEVALID": "Evaluator Identifier", "TUACPTFL": "Accepted Record Flag", "TUDTC": "Date/Time of Tumor Identification", "TUDY": "Study Day of Tumor Identification", "TRSEQ": "Sequence Number", "TRGRPID": "Group ID", "TRREFID": "Reference ID", "TRSPID": "Sponsor-Defined Identifier", "TRLNKID": "Link ID", "TRLNKGRP": "Link Group", "TRTESTCD": "Tumor Assessment Short Name", "TRTEST": "Tumor Assessment Test Name", "TRORRES": "Result or Finding in Original Units", "TRSTRESC": "Character Result/Finding in Std Format", "TRSTRESN": "Numeric Result/Finding in Standard Units", "TRSTAT": "Completion Status", "TRREASND": "Reason Tumor Measurement Not Performed", "TRNAM": "Vendor Name", "TRMETHOD": "Method used to Identify the Tumor", "TREVAL": "Evaluator", "TREVALID": "Evaluator Identifier", "TRACPTFL": "Accepted Record Flag", "TRDTC": "Date/Time of Tumor Measurement", "TRDY": "Study Day of Tumor Measurement", "TRSTRESU": "Standard Units", "RSSEQ": "Sequence Number", "RSGRPID": "Group ID", "RSREFID": "Reference ID", "RSSPID": "Sponsor-Defined Identifier", "RSLNKID": "Link ID", "RSLNKGRP": "Link Group", "RSTESTCD": "Response Assessment Short Name", "RSTEST": "Response Assessment Name", "RSCAT": "Category for Response Assessment", "RSORRES": "Response Assessment Original Result", "RSSTRESC": "Response Assessment Result in Std Format", "RSSTAT": "Completion Status", "RSREASND": "Reason Response Assessment Not Performed", "RSNAM": "Vendor Name", "RSEVAL": "Evaluator", "RSEVALID": "Evaluator Identifier", "RSACPTFL": "Accepted Record Flag", "RSDTC": "Date/Time of Response Assessment", "RSDY": "Study Day of Response Assessment", "VSGRPID": "Group ID", "VSSPID": "Sponsor-Defined Identifier", "VSCAT": "Category for Vital Signs", "VSSCAT": "Subcategory for Vital Signs", "VSSTAT": "Completion Status", "VSREASND": "Reason Not Performed", "VSLOC": "Location of Vital Signs Measurement", "VSLAT": "Laterality", "VSDRVFL": "Derived Flag", "VSTPT": "Planned Time Point Name", "VSTPTNUM": "Planned Time Point Number", "VSELTM": "Planned Elapsed Time from Time Point Ref", "VSTPTREF": "Time Point Reference", "VSRFTDTC": "Date/Time of Reference Time Point"}